File: data/raman.txt
# nanotube RBM modes
# 22/7/2007
,1.89RBM,1.90RBM,1.91RBM,1.92RBM,1.93RBM
125.2566,0.26426,0.28273,0.25838,0.172546,0.22826
125.6166,0.27809,0.293984,0.259423,0.17689,0.225268
126.3466,0.28147,0.303095,0.256957,0.173145,0.234281
127.0766,0.28886,0.324568,0.246541,0.178981,0.23754
127.8066,0.30142,0.289897,0.262957,0.183168,0.223064
128.5366,0.2897,0.314034,0.269118,0.183907,0.231861
129.2666,0.28981,0.319417,0.265564,0.183679,0.22567
129.9966,0.28801,0.307377,0.279616,0.17511,0.231586
130.7266,0.28611,0.326892,0.261077,0.179546,0.224622
131.4566,0.29445,0.307899,0.251212,0.166475,0.221282
131.9966,0.26658,0.301136,0.245444,0.170324,0.222857
132.5466,0.26457,0.277071,0.252778,0.16665,0.228963
133.2766,0.26605,0.2792,0.248221,0.167925,0.228706
134.0066,0.26289,0.283001,0.25946,0.17835,0.23137
134.7366,0.2726,0.275025,0.242473,0.179006,0.234096
135.4566,0.26658,0.283335,0.234415,0.162988,0.216004
136.1866,0.26341,0.26765,0.235892,0.168906,0.21826
136.9166,0.24356,0.267083,0.230812,0.168688,0.210961
137.6466,0.24831,0.269375,0.238769,0.164051,0.205058
138.3766,0.24504,0.279355,0.232973,0.169811,0.220265
138.7366,0.25222,0.268244,0.225857,0.172087,0.215187
139.4666,0.25866,0.256123,0.229733,0.163918,0.210668
140.1966,0.26267,0.263748,0.224337,0.152562,0.213718
140.9266,0.24483,0.275703,0.21879,0.139771,0.197351
141.6466,0.25919,0.265369,0.194801,0.153982,0.200733
142.3766,0.27893,0.256948,0.204527,0.147662,0.209007
143.1066,0.24863,0.26646,0.199968,0.156148,0.19387
143.8366,0.25286,0.248755,0.206473,0.145261,0.214474
144.5666,0.25497,0.255162,0.222957,0.141855,0.20698
145.1066,0.26109,0.243061,0.208068,0.147039,0.209939
145.6566,0.25539,0.225515,0.213229,0.154579,0.211541
146.3766,0.24853,0.233313,0.214667,0.160246,0.210715
147.1066,0.2575,0.239144,0.212915,0.157534,0.205563
147.8366,0.25169,0.233198,0.212943,0.168768,0.210279
148.5666,0.23206,0.252235,0.215154,0.161747,0.220278
149.2866,0.24926,0.24684,0.197011,0.179345,0.21864
150.0166,0.23923,0.254949,0.215842,0.191221,0.22376
150.7466,0.24525,0.250798,0.222014,0.185948,0.222342
151.4766,0.25739,0.239257,0.245449,0.182244,0.208235
152.0166,0.23227,0.244464,0.251131,0.181582,0.206835
152.5666,0.24029,0.26381,0.236414,0.1938,0.201388
153.2866,0.22108,0.274439,0.224978,0.173807,0.188682
154.0166,0.2367,0.289446,0.237653,0.174727,0.190836
154.7466,0.2593,0.26672,0.226508,0.170635,0.183846
155.4666,0.27904,0.266231,0.2375,0.15647,0.20074
156.1966,0.27006,0.27216,0.235289,0.14656,0.200664
156.9266,0.26035,0.280923,0.217215,0.137262,0.21069
157.6466,0.26098,0.269414,0.222778,0.151308,0.213429
158.3766,0.25011,0.273279,0.211563,0.173896,0.236041
158.7366,0.25972,0.269834,0.211976,0.179033,0.244854
159.4666,0.23807,0.235188,0.249088,0.1747,0.22847
160.1966,0.22868,0.227185,0.25572,0.179506,0.229638
160.9166,0.21009,0.249101,0.23696,0.177048,0.217809
161.6466,0.20418,0.264146,0.238551,0.192707,0.216389
162.3666,0.22076,0.277117,0.233482,0.187186,0.227773
163.0966,0.24842,0.278818,0.253424,0.190097,0.244457
163.8266,0.23871,0.25424,0.263578,0.195307,0.254042
164.5466,0.27703,0.273127,0.267605,0.192955,0.245082
165.0966,0.23153,0.277679,0.257551,0.193871,0.237079
165.6366,0.25813,0.274612,0.245397,0.197297,0.239194
166.3666,0.25909,0.282021,0.246041,0.21229,0.242401
167.0866,0.26521,0.263147,0.277551,0.202151,0.237421
167.8166,0.25813,0.259485,0.279756,0.20197,0.256383
168.5366,0.25286,0.291862,0.276393,0.202474,0.257621
169.2666,0.2575,0.30885,0.268355,0.20858,0.266669
169.9866,0.26542,0.30959,0.271299,0.215588,0.266107
170.7166,0.26816,0.309472,0.286794,0.235812,0.256878
171.4366,0.28326,0.320772,0.318662,0.251467,0.263054
171.9866,0.28104,0.327162,0.354943,0.26842,0.275125
172.5266,0.30945,0.350106,0.350901,0.279392,0.285037
173.2566,0.31356,0.390985,0.386697,0.269472,0.290311
173.9766,0.33542,0.422781,0.411487,0.277807,0.316327
174.7066,0.39613,0.450009,0.397953,0.316649,0.323592
175.4266,0.34017,0.508591,0.452272,0.328073,0.318768
176.1566,0.39518,0.460154,0.437372,0.30355,0.298816
176.8766,0.37818,0.422204,0.418945,0.293732,0.302567
177.5966,0.33214,0.392746,0.395782,0.269443,0.320214
178.3266,0.31557,0.381941,0.352862,0.248143,0.344946
178.6666,0.32381,0.364986,0.335607,0.241934,0.35157
179.4166,0.32602,0.364841,0.327874,0.28239,0.395344
180.1166,0.28221,0.333462,0.300283,0.308155,0.419497
180.8366,0.28453,0.336475,0.34981,0.32369,0.467658
181.5666,0.265,0.289303,0.384906,0.365913,0.535157
182.2866,0.25307,0.34608,0.403958,0.401723,0.586759
183.0066,0.21305,0.353572,0.431507,0.420328,0.614032
183.7366,0.31145,0.369352,0.446637,0.434725,0.605071
184.4566,0.29424,0.385044,0.440604,0.431322,0.593301
184.9966,0.31926,0.36457,0.440322,0.427795,0.562772
185.5466,0.28537,0.334775,0.428579,0.403293,0.545147
186.2666,0.28717,0.371462,0.421002,0.40409,0.554798
186.9866,0.34028,0.410582,0.421219,0.406967,0.59066
187.7166,0.36836,0.420315,0.4429,0.433774,0.646458
188.4366,0.35939,0.391293,0.464384,0.46148,0.698207
189.1666,0.33141,0.39846,0.468273,0.50142,0.763477
189.8866,0.31589,0.408934,0.483669,0.520155,0.790282
190.6066,0.31324,0.412526,0.494826,0.551623,0.81643
191.3366,0.32813,0.402649,0.50494,0.581795,0.831443
191.8766,0.30206,0.410977,0.523571,0.615623,0.890653
192.3966,0.30533,0.423863,0.564845,0.653013,0.964946
193.1166,0.33109,0.451456,0.617578,0.71045,1.13091
193.8366,0.36319,0.4869,0.669355,0.761359,1.24486
194.5666,0.37554,0.528013,0.695093,0.841553,1.33351
195.2866,0.38346,0.552421,0.770227,0.934093,1.40395
196.0066,0.40141,0.555785,0.830491,0.948059,1.40564
196.7366,0.39328,0.594676,0.836028,0.922602,1.30924
197.4566,0.38399,0.571831,0.81707,0.857994,1.14592
198.1766,0.37142,0.539397,0.742304,0.760521,1.07817
198.5366,0.36213,0.541662,0.703418,0.710748,0.988664
199.2566,0.32982,0.475678,0.622392,0.613895,0.838103
199.9866,0.31768,0.43928,0.56093,0.56129,0.653871
200.7066,0.29245,0.414313,0.52144,0.495263,0.564294
201.4066,0.27851,0.371371,0.494879,0.439974,0.483093
202.1266,0.24599,0.32563,0.435604,0.353797,0.416614
202.8466,0.23015,0.324361,0.364406,0.304008,0.354347
203.5766,0.22002,0.294529,0.311678,0.258904,0.308634
204.2966,0.20619,0.254845,0.264231,0.209105,0.26625
204.8366,0.1667,0.237069,0.241778,0.183223,0.256405
205.3766,0.16575,0.203703,0.206443,0.174238,0.206285
206.0966,0.13988,0.196816,0.166857,0.158724,0.186291
206.8166,0.1327,0.155799,0.161876,0.138569,0.171136
207.5466,0.11898,0.14831,0.14317,0.0990025,0.1421556
208.2666,0.1042,0.142965,0.12893,0.0954982,0.12692
208.9666,0.10926,0.139598,0.109881,0.0856776,0.115538
209.6866,0.08171,0.0984618,0.118935,0.073217,0.108377
210.4066,0.07675,0.112449,0.101141,0.0531359,0.102962
211.1266,0.06872,0.105439,0.0916286,0.0595565,0.09247
218.3166,0.01139,0.0415212,0.0257543,0.0176036,0.0140793
219.0366,0.03926,0.042656,-0.000851068,0.022152,0.0170736
219.7566,0.01614,0.0268691,0.0245291,0.00718465,0.0170337
220.4766,-0.00149,0.0333781,0.01196,-0.00251451,0.0107414
221.1966,-0.01268,0.00128341,0.0204946,0.00127657,-0.00163199
221.9166,-0.01131,0.01708,0.0321388,-0.000913384,-0.000519863
222.6166,-0.00561,0.0199454,0.0413007,-0.0165269,-0.0091778
223.3366,0.01012,0.040137,0.012865,-0.0156857,-0.0130615
224.0566,0.00632,0.0494378,0.0273559,-0.0200516,-0.0165522
224.5966,0.0399,0.0409612,0.00680372,-0.0269775,-0.02035
225.1366,0.03261,0.0501942,0.0154319,-0.0239815,-0.0162285
225.8566,0.08889,0.0817637,0.0167996,-0.016181,-0.013787
226.5766,0.10483,0.0864782,0.0320975,-0.02943,-0.0227327
227.2966,0.12331,0.0904603,0.01885,-0.0222178,-0.0222113
227.9866,0.13017,0.108453,0.0328526,-0.018465,-0.0300723
228.7066,0.13682,0.0993857,0.0460038,-0.0217847,-0.0293066
229.4266,0.11254,0.0895106,0.0484039,-0.0301009,-0.0270136
230.1466,0.09659,0.103937,0.00423943,-0.0428811,-0.0236828
230.8666,0.07844,0.0599078,-0.0135305,-0.0500155,-0.0188878
231.2266,0.0608,0.0461042,-0.0157435,-0.0410314,-0.0191896
231.9466,0.05151,0.0314531,-0.0215972,-0.0627184,-0.0115286
232.6666,0.02945,0.00988538,-0.0231238,-0.0485873,-0.0285292
233.3666,0.01678,-0.00486209,-0.0313846,-0.02843,-0.041534
234.0866,0.0172,0.00471857,-0.00926461,-0.0113797,-0.0401925
234.8066,0.02691,0.01278,-0.00176354,-0.051536,-0.0269777
235.5266,0.03166,0.0450262,-0.0463246,-0.0534815,-0.0363935
236.2366,0.04834,-0.00212471,-0.0653344,-0.0452125,-0.0413118
236.9566,0.00358,-0.0236521,-0.0542921,-0.0435879,-0.0453265
237.6766,-0.02862,-0.0323656,-0.0639076,-0.0382525,-0.0530499
238.0166,-0.00202,-0.0151304,-0.04701,-0.048178,-0.0499163
238.7366,0.00125,-0.0292479,-0.0507282,-0.0441983,-0.0660684
239.4566,-0.01838,-0.0196636,-0.0553998,-0.0613344,-0.0598058
240.1666,-0.0168,-0.0440574,-0.0682601,-0.0647911,-0.0387827
240.8866,-0.01807,-0.0587982,-0.088971,-0.0935027,-0.0519608
241.6066,-0.04721,-0.0547475,-0.0780855,-0.0348315,-0.0483767
242.3266,-0.06557,-0.0926166,-0.0475949,-0.0428304,-0.0571635
243.0266,-0.04098,-0.0194702,-0.0498511,-0.0502902,-0.0547838
243.7366,-0.01944,-0.0166542,-0.0549211,-0.0313926,-0.060205
244.2766,-0.03105,-0.0411077,-0.0377679,-0.0422066,-0.0510031
244.8166,-0.05502,-0.0326308,-0.0230253,-0.037587,-0.04289
245.5366,-0.04266,-0.0159827,-0.0401961,-0.0256676,-0.0455546
246.2566,-0.04594,-0.0405136,-0.0296426,-0.031581,-0.0393686
246.9466,-0.0377,-0.0224974,-0.01936,-0.03136,-0.0373614
247.6666,-0.03358,-0.0162648,-0.0239716,-0.0193627,-0.0211742
248.3866,-0.04763,-0.009258,-0.0287823,-0.0303327,-0.00230085
249.1066,-0.02208,-0.0169833,-0.0182806,-0.001736,0.0275539
249.8166,-0.04172,-0.00179887,0.00982585,0.00768483,0.0808012
250.5366,-0.0263,0.0369565,0.0393176,0.0407406,0.133932
250.8966,-0.00159,0.0326034,0.0502514,0.048333,0.144021
251.5966,0.00305,0.0559756,0.0747548,0.0808425,0.17472
252.3066,0.00685,0.0546349,0.121499,0.108143,0.177301
253.0266,0.02533,0.0951577,0.0982885,0.112882,0.198168
253.7466,0.05014,0.0954329,0.127205,0.0949686,0.189492
254.4566,0.02776,0.07937,0.0989695,0.0647649,0.157636
255.1566,0.00801,0.0846462,0.0847106,0.0700607,0.112736
255.8766,0.03831,0.0810019,0.0763771,0.0494379,0.0863153
256.5866,0.05595,0.0758579,0.0426441,0.0361692,0.0698742
257.3066,0.04613,0.0708485,0.0391696,0.0318326,0.0458294
257.6666,0.04591,0.0585379,0.0384233,0.0197248,0.0543938
258.3866,0.03758,0.0411695,0.0254101,0.0266898,0.07206
259.0766,0.02638,0.0569213,0.0060841,0.0336676,0.0838332
259.7966,-0.00064,0.00910787,0.0601632,0.08313,0.0925436
260.5066,0.0531,0.0709279,0.0687386,0.0914822,0.140956
261.2266,0.08752,0.0894346,0.121556,0.148147,0.210451
261.9466,0.0986,0.14494,0.181972,0.211371,0.348718
262.6366,0.18972,0.213322,0.283399,0.292731,0.427723
263.3566,0.23776,0.306776,0.405986,0.377444,0.464147
263.8866,0.2594,0.372382,0.433064,0.399685,0.459698
264.4266,0.27334,0.370153,0.448895,0.416397,0.436809
265.1466,0.2272,0.347671,0.401231,0.356731,0.39138
265.8566,0.20355,0.305381,0.325079,0.294792,0.324412
266.5566,0.16702,0.241014,0.30385,0.24848,0.233469
267.2666,0.13967,0.20718,0.2563,0.2109,0.171729
267.9866,0.10114,0.171996,0.171394,0.157774,0.113766
268.6966,0.06925,0.129657,0.144464,0.119452,0.0818224
269.4166,0.07368,0.117747,0.110574,0.0936711,0.0621552
270.1066,0.04465,0.0989105,0.0745572,0.0767405,0.0552027
270.4666,0.04095,0.083895,0.0912574,0.085467,0.0484814
271.1866,0.04475,0.0711431,0.076437,0.0548257,0.0295431
271.8966,0.03621,0.0768235,0.0564543,0.0648198,0.04373
272.6166,0.02058,0.0774555,0.0756682,0.0586899,0.048418
273.3066,0.04359,0.0681142,0.05908,0.04932,0.0641077
274.0266,0.03378,0.07324,0.0961118,0.0763461,0.0717288
274.7366,0.06323,0.0961743,0.101502,0.0979797,0.125489
275.4566,0.06133,0.115608,0.148344,0.130291,0.203119
276.1666,0.1137,0.138206,0.189912,0.202376,0.267058
276.6866,0.1364,0.181443,0.234264,0.295886,0.347192
277.2166,0.16691,0.22038,0.305494,0.353351,0.444927
277.9366,0.22688,0.299218,0.390307,0.499547,0.616977
278.6466,0.24926,0.359607,0.539337,0.693338,0.72991
279.3666,0.36551,0.485576,0.727745,0.923475,1.00612
280.0566,0.47341,0.661978,0.85102,1.05189,1.407
280.7666,0.5659,0.798837,1.20864,1.39572,1.90787
281.4866,0.74211,1.08321,1.59572,1.74747,2.43977
282.1966,0.96521,1.38059,2.0298,2.11561,3.14122
282.8966,1.08008,1.61917,2.37974,2.37336,3.26787
283.4266,1.15219,1.72444,2.42988,2.44324,3.1078
283.9666,1.05791,1.67381,2.27372,2.28306,2.73172
284.6766,0.93786,1.43119,1.89145,1.96808,2.1465
285.3966,0.75025,1.14912,1.49275,1.53263,1.8791
286.0866,0.60117,0.920012,1.14173,1.16618,1.41173
286.7966,0.52652,0.75499,0.980159,1.03071,1.04845
287.5166,0.40975,0.624348,0.764322,0.804243,0.763153
288.2266,0.37755,0.508896,0.578382,0.599792,0.581785
288.9166,0.2953,0.391596,0.473821,0.490956,0.420115
289.6266,0.27988,0.341245,0.390599,0.420126,0.334576
289.9866,0.2859,0.340508,0.369297,0.37636,0.304312
290.7066,0.31621,0.342381,0.372743,0.32101,0.237997
291.4166,0.35886,0.379462,0.373951,0.325415,0.212713
292.1066,0.43773,0.437508,0.412744,0.362882,0.207428
292.8166,0.6624,0.584523,0.49866,0.4375,0.185907
293.5366,0.80905,0.71149,0.620822,0.492334,0.242145
294.2466,1.29557,1.07509,0.907551,0.617606,0.354914
294.9366,2.26649,1.74741,1.46681,0.864129,0.559054
295.6466,3.53357,2.80442,2.28011,1.22516,0.875796
296.1866,4.52675,3.63961,3.08515,1.53916,0.950231
296.7166,5.146,4.49284,3.32766,1.67639,0.988979
297.4166,5.21316,4.72131,3.32289,1.65116,0.901205
298.1266,4.39309,4.27314,2.86693,1.4869,0.75468
298.8366,3.16677,3.23011,2.20294,1.10896,0.598231
299.5466,2.65103,2.69677,1.72115,0.937549,0.38275
300.2366,1.8221,1.84385,1.15306,0.614934,0.237211
300.9566,1.28121,1.23688,0.798599,0.42021,0.12924
301.6666,0.96046,0.914728,0.557198,0.283969,0.0511429
302.3766,0.6718,0.651312,0.382874,0.186568,0.0336966
302.8966,0.58628,0.547476,0.305024,0.152142,0.0219393
303.4266,0.4882,0.457585,0.286399,0.132753,-0.00714877
304.1366,0.42991,0.367701,0.213027,0.108839,-0.0173268
304.8466,0.38947,0.318505,0.21137,0.0878205,-0.00989
305.5366,0.34197,0.281962,0.16567,0.0811379,-0.028057
306.2566,0.27946,0.26368,0.148193,0.0672544,-0.0474567
306.9666,0.2537,0.214338,0.0994264,0.0561477,-0.0784475
307.6566,0.18708,0.158845,0.055836,0.0303242,-0.0796141
308.3666,0.14759,0.130638,0.0576333,0.0101475,-0.0866741
309.0766,0.13207,0.118541,0.0253467,0.0102536,-0.118179
309.4366,0.11539,0.0912387,0.0311808,0.00308634,-0.117808
310.1266,0.07653,0.0610585,0.0213774,-0.004149,-0.12643
310.8366,0.0645,0.0492302,0.00273217,-0.0168928,-0.144364
311.5466,0.05658,0.0371203,-0.0150188,-0.0383384,-0.14481
312.2566,0.04085,0.01655,-0.0332378,-0.02893,-0.147632
312.9466,0.02311,0.0137284,-0.0103757,-0.0338076,-0.150858
313.6566,0.00305,0.0103915,-0.0305854,-0.0519407,-0.165819
314.3766,-0.00835,-0.0161329,-0.0512494,-0.0473386,-0.177437
315.0666,-0.01817,-0.0284363,-0.045539,-0.0539592,-0.180835
315.5966,-0.02662,-0.0186472,-0.0392487,-0.0567987,-0.187815
316.1266,-0.03042,-0.0244087,-0.0417743,-0.0676957,-0.186186
316.8366,-0.03031,-0.0234328,-0.0512884,-0.0824635,-0.189874
317.5266,-0.03274,-0.0431827,-0.0654807,-0.0800497,-0.195059
318.2366,-0.05745,-0.0512444,-0.06463,-0.0922104,-0.19592
318.9466,-0.07561,-0.0470861,-0.0714966,-0.10211,-0.214379
319.6666,-0.05913,-0.0741069,-0.102451,-0.113171,-0.219067
320.3466,-0.06452,-0.0525106,-0.0925358,-0.126953,-0.212301
321.0666,-0.0717,-0.0543765,-0.0991555,-0.116483,-0.216954
321.7766,-0.08796,-0.0840715,-0.0969801,-0.122544,-0.225115
322.2866,-0.1038,-0.080201,-0.125018,-0.119209,-0.235804
322.8166,-0.10137,-0.0880492,-0.107481,-0.136662,-0.227055
323.5266,-0.085,-0.101421,-0.122885,-0.13637,-0.220684
324.2366,-0.08733,-0.0849365,-0.124647,-0.126665,-0.233728
324.9266,-0.09862,-0.10201,-0.11915,-0.130714,-0.22707
325.6366,-0.1265,-0.0878906,-0.118047,-0.14228,-0.24335
326.3466,-0.10021,-0.102514,-0.138238,-0.130915,-0.23868
327.0366,-0.12227,-0.101816,-0.131741,-0.130989,-0.229883
327.7466,-0.11024,-0.12507,-0.132763,-0.124376,-0.222297
328.4566,-0.12153,-0.103134,-0.150943,-0.144656,-0.227496
328.8066,-0.15511,-0.157916,-0.157563,-0.141516,-0.238356
329.4966,-0.17253,-0.150957,-0.161699,-0.138818,-0.251012
330.2066,-0.14339,-0.150479,-0.161329,-0.13545,-0.235422
330.9166,-0.14159,-0.166282,-0.151618,-0.129212,-0.234175
331.6066,-0.15585,-0.14891,-0.1621,-0.137618,-0.230804
332.3166,-0.19608,-0.138418,-0.144251,-0.152183,-0.231319
333.0266,-0.1701,-0.147636,-0.149188,-0.128328,-0.2683107
333.7166,-0.17475,-0.164142,-0.156688,-0.150729,-0.25816
334.4266,-0.1738,-0.149379,-0.15139,-0.154967,-0.256324
334.9566,-0.16081,-0.158059,-0.144154,-0.158164,-0.27062
335.4666,-0.16978,-0.150603,-0.14368,-0.187711,-0.260615
336.1766,-0.18098,-0.16141,-0.171318,-0.157953,-0.266407
336.8866,-0.18446,-0.162117,-0.163937,-0.16807,-0.266429
337.5666,-0.21381,-0.155477,-0.15795,-0.16676,-0.275375
338.2766,-0.20832,-0.180612,-0.168451,-0.165057,-0.279472
338.9866,-0.19956,-0.17908,-0.184845,-0.16271,-0.295428
339.6766,-0.23704,-0.191773,-0.188266,-0.170448,-0.284032
340.3866,-0.25721,-0.21407,-0.190354,-0.188711,-0.2998598
341.0966,-0.22067,-0.217923,-0.222626,-0.201232,-0.305643
341.4466,-0.22986,-0.207596,-0.222016,-0.212599,-0.305052
342.1366,-0.25594,-0.224087,-0.219826,-0.207906,-0.304373
342.8466,-0.23894,-0.246285,-0.25565,-0.210014,-0.29572
343.5466,-0.27536,-0.240438,-0.23976,-0.215576,-0.301858
344.2366,-0.23767,-0.25165,-0.24657,-0.216647,-0.302418
344.9466,-0.26618,-0.230244,-0.22275,-0.22143,-0.305656
345.6566,-0.2269,-0.245841,-0.248181,-0.224912,-0.306829
346.3366,-0.27452,-0.246344,-0.235361,-0.215242,-0.317116
347.0466,-0.26502,-0.275436,-0.276191,-0.218269,-0.319321
347.7366,-0.27199,-0.270233,-0.272044,-0.260069,-0.338678
348.0866,-0.25932,-0.272805,-0.27868,-0.24338,-0.333147
348.7966,-0.26312,-0.281714,-0.277286,-0.252576,-0.317121
349.5066,-0.27378,-0.251455,-0.264706,-0.239029,-0.319418
350.1966,-0.27526,-0.263604,-0.257896,-0.231899,-0.315333
350.8966,-0.25646,-0.262332,-0.259676,-0.2209,-0.315289
351.5866,-0.29205,-0.280506,-0.279956,-0.22163,-0.319857
352.2966,-0.29553,-0.252296,-0.230786,-0.230613,-0.315434
352.9966,-0.27822,-0.296701,-0.259096,-0.221713,-0.319674
353.6866,-0.29025,-0.275584,-0.262068,-0.215035,-0.314067
354.2166,-0.27368,-0.283972,-0.264976,-0.214495,-0.312866
354.7466,-0.2912,-0.255375,-0.250221,-0.213155,-0.30259
355.4366,-0.31876,-0.275363,-0.250084,-0.202827,-0.302725
356.1366,-0.29458,-0.29002,-0.271071,-0.214645,-0.305656
356.8466,-0.30472,-0.27414,-0.267206,-0.20277,-0.314637
357.5366,-0.29807,-0.275956,-0.265744,-0.240989,-0.320643
358.2366,-0.29289,-0.290163,-0.269958,-0.21984,-0.320657
358.9466,-0.30525,-0.290394,-0.256206,-0.216017,-0.307766
359.6366,-0.278,-0.282825,-0.257558,-0.201909,-0.312163
360.3366,-0.30799,-0.292033,-0.257104,-0.198998,-0.30831
360.6966,-0.28466,-0.272604,-0.255508,-0.2092,-0.302648
361.3766,-0.28803,-0.284377,-0.265469,-0.199034,-0.284967
362.0866,-0.26206,-0.233212,-0.237139,-0.197142,-0.286948
362.7966,-0.27959,-0.271461,-0.244241,-0.187757,-0.27446
363.4766,-0.26523,-0.25262,-0.22751,-0.148122,-0.282608
364.1866,-0.27262,-0.267603,-0.25005,-0.188769,-0.288278
364.8666,-0.2722,-0.271765,-0.228319,-0.189029,-0.29817
365.5766,-0.30366,-0.268614,-0.252306,-0.20199,-0.307757
366.2866,-0.30873,-0.286463,-0.250411,-0.20629,-0.309513
366.9666,-0.32625,-0.285106,-0.281685,-0.202281,-0.316601
367.3166,-0.34441,-0.293512,-0.262043,-0.212393,-0.30393
368.0266,-0.30999,-0.303102,-0.276054,-0.186673,-0.30404
368.7066,-0.32826,-0.311973,-0.296608,-0.214575,-0.31314
369.4166,-0.30746,-0.325621,-0.283268,-0.216211,-0.313084
370.0966,-0.32742,-0.337699,-0.29695,-0.227524,-0.301433
370.8066,-0.3291,-0.314371,-0.275293,-0.211468,-0.30733
371.5166,-0.32573,-0.33305,-0.288295,-0.211377,-0.294382
372.1966,-0.32446,-0.3462,-0.289674,-0.205555,-0.301811
372.9066,-0.27199,-0.310521,-0.271356,-0.198945,-0.299331
373.4366,-0.33048,-0.303813,-0.254736,-0.199869,-0.303145
373.9366,-0.32499,-0.257979,-0.253684,-0.193355,-0.300062
374.6466,-0.28814,-0.298689,-0.222248,-0.199436,-0.298772
375.3266,-0.29722,-0.26441,-0.235491,-0.184172,-0.298452
376.0366,-0.25721,-0.23681,-0.228559,-0.188196,-0.312803
376.7366,-0.28233,-0.281633,-0.233749,-0.194921,-0.301747
377.4266,-0.2646,-0.256137,-0.252463,-0.19933,-0.29153
378.1266,-0.27188,-0.250398,-0.236463,-0.194169,-0.289401
378.8166,-0.29226,-0.256563,-0.239969,-0.212197,-0.291781
379.5166,-0.28159,-0.258402,-0.254149,-0.190373,-0.289095
379.8666,-0.27632,-0.278312,-0.2595825,-0.204934,-0.299833
380.5566,-0.27938,-0.304491,-0.296778,-0.214438,-0.299327
381.2566,-0.28824,-0.280527,-0.272912,-0.2118482,-0.295387
381.9366,-0.26301,-0.300794,-0.28759,-0.218838,-0.303823
382.6466,-0.2969,-0.307529,-0.27057,-0.206876,-0.293523
383.3466,-0.27864,-0.288405,-0.275038,-0.213364,-0.286772
384.0366,-0.27927,-0.29436,-0.288746,-0.18822,-0.28878
384.7366,-0.26312,-0.298009,-0.271123,-0.19478,-0.271671
385.4266,-0.27875,-0.282796,-0.285281,-0.197267,-0.277943
386.1266,-0.29004,-0.280052,-0.256559,-0.188899,-0.264235
386.4766,-0.29669,-0.288301,-0.262005,-0.181889,-0.266345
387.1566,-0.29986,-0.28282,-0.27206,-0.176598,-0.278943
387.8666,-0.29659,-0.302563,-0.260859,-0.161629,-0.24987
388.5466,-0.31105,-0.32696,-0.259082,-0.170551,-0.256896
389.2566,-0.31358,-0.304502,-0.27895,-0.183262,-0.272417
389.9566,-0.31369,-0.328349,-0.283364,-0.173959,-0.266239
390.6366,-0.33629,-0.316966,-0.282226,-0.17758,-0.26586
391.3466,-0.32657,-0.331013,-0.264107,-0.177072,-0.265497
392.0266,-0.29088,-0.330933,-0.273109,-0.182323,-0.283356
392.5566,-0.33333,-0.326924,-0.271831,-0.197058,-0.291152
393.0766,-0.34019,-0.314467,-0.27928,-0.182436,-0.278314
393.7666,-0.35666,-0.327725,-0.268491,-0.177427,-0.279284
394.4666,-0.36363,-0.330031,-0.295767,-0.188632,-0.295882
395.1466,-0.37208,-0.355369,-0.285318,-0.203886,-0.291746
395.8566,-0.36247,-0.357512,-0.304904,-0.203247,-0.293812
396.5366,-0.37461,-0.384758,-0.299086,-0.193664,-0.291111
397.2366,-0.38316,-0.358737,-0.312172,-0.21885,-0.29323
397.9166,-0.36215,-0.364992,-0.306478,-0.20399,-0.297871
398.6266,-0.3631,-0.368955,-0.305988,-0.205524,-0.305322
398.9766,-0.35708,-0.368046,-0.313986,-0.219244,-0.309986
399.6566,-0.38886,-0.381237,-0.318722,-0.20022,-0.309462
400.3566,-0.37683,-0.369443,-0.322785,-0.211163,-0.31118
401.0366,-0.37366,-0.361102,-0.300107,-0.209717,-0.31961
401.7466,-0.38031,-0.365793,-0.305913,-0.220138,-0.314886
402.4266,-0.35223,-0.362111,-0.306278,-0.19598,-0.309038
403.1266,-0.37936,-0.368468,-0.305861,-0.201656,-0.299792
403.8266,-0.3688,-0.369527,-0.283445,-0.215396,-0.30354
404.5166,-0.35624,-0.385246,-0.296529,-0.194481,-0.309701
405.0366,-0.39045,-0.37626,-0.310864,-0.196565,-0.307243
405.5466,-0.37598,-0.385094,-0.311034,-0.209833,-0.303012
406.2466,-0.38433,-0.380502,-0.327118,-0.213751,-0.299866
406.9266,-0.3819,-0.410128,-0.332788,-0.22455,-0.315241
407.6266,-0.4046,-0.40948,-0.326933,-0.237436,-0.306359
408.3066,-0.42064,-0.395696,-0.32995,-0.224154,-0.31554
409.0166,-0.40269,-0.416508,-0.34487,-0.222014,-0.317827
409.7166,-0.40998,-0.427176,-0.32816,-0.219193,-0.320448
410.3966,-0.40101,-0.405009,-0.333892,-0.220254,-0.32654
411.0766,-0.41705,-0.417035,-0.372258,-0.221137,-0.311518
411.6066,-0.40681,-0.42526,-0.364872,-0.22296,-0.316509
412.1266,-0.41083,-0.413839,-0.36064,-0.240383,-0.312639
412.8066,-0.40217,-0.416004,-0.364109,-0.242327,-0.328344
413.5166,-0.41441,-0.428165,-0.367619,-0.233276,-0.326605
414.1966,-0.44704,-0.437462,-0.366605,-0.2229,-0.325473
414.8966,-0.38981,-0.413147,-0.36789,-0.24669,-0.333933
415.5766,-0.42645,-0.447877,-0.357794,-0.237906,-0.33519
416.2766,-0.41663,-0.417006,-0.367013,-0.23754,-0.323009
416.9566,-0.399,-0.440295,-0.368689,-0.232965,-0.319615
417.6566,-0.39805,-0.431692,-0.361116,-0.251217,-0.323881
418.0066,-0.43247,-0.433414,-0.370665,-0.239424,-0.320635
418.6866,-0.40745,-0.426831,-0.376791,-0.236391,-0.335091
419.3866,-0.3895,-0.423784,-0.368987,-0.245507,-0.317619
420.0666,-0.42191,-0.41303,-0.381275,-0.242247,-0.336036
420.7666,-0.39129,-0.429125,-0.366466,-0.249569,-0.33196
421.4466,-0.40132,-0.419334,-0.359805,-0.229609,-0.316526
422.1466,-0.397,-0.436946,-0.366846,-0.236184,-0.328438
422.8266,-0.44525,-0.43647,-0.365991,-0.2261,-0.321407
423.5266,-0.40797,-0.445247,-0.383893,-0.243634,-0.318725
424.0366,-0.41114,-0.435603,-0.378176,-0.235164,-0.329596
424.5566,-0.382,-0.431885,-0.382876,-0.231257,-0.313926
425.2366,-0.40481,-0.428014,-0.366186,-0.261003,-0.326971
425.9366,-0.37567,-0.422925,-0.38604,-0.260021,-0.3497
426.6166,-0.41188,-0.434488,-0.37001,-0.252498,-0.332759
427.3166,-0.42001,-0.425516,-0.37204,-0.263213,-0.338342
427.9966,-0.40998,-0.433144,-0.37856,-0.247502,-0.343032
428.6966,-0.42487,-0.429524,-0.371114,-0.250294,-0.325252
429.3766,-0.40544,-0.416116,-0.37137,-0.25872,-0.325788
430.0766,-0.41938,-0.426151,-0.375343,-0.246296,-0.322916
430.6066,-0.41917,-0.429611,-0.372015,-0.248404,-0.321306
431.1066,-0.41336,-0.42234,-0.399877,-0.265802,-0.321239
431.8066,-0.44789,-0.40976,-0.391551,-0.255297,-0.333831
432.4866,-0.44091,-0.41324,-0.368322,-0.274388,-0.344041
433.1866,-0.40871,-0.448824,-0.355959,-0.278987,-0.353025
433.8666,-0.41927,-0.407185,-0.38545,-0.267762,-0.341644
434.5466,-0.43638,-0.409636,-0.410374,-0.266294,-0.341561
435.2466,-0.44841,-0.409341,-0.383009,-0.267498,-0.343401
435.9166,-0.43036,-0.409227,-0.373492,-0.275151,-0.347964
436.6166,-0.51039,-0.416633,-0.378295,-0.318878,-0.357492
436.9666,-0.45137,-0.424547,-0.375227,-0.288048,-0.367474
437.6466,-0.43363,-0.418917,-0.360987,-0.296974,-0.349759
438.3466,-0.47006,-0.419012,-0.356522,-0.287368,-0.352479
439.0266,-0.44451,-0.419942,-0.369539,-0.27726,-0.348822
439.7266,-0.4595,-0.435789,-0.384725,-0.276542,-0.358422
440.4066,-0.45918,-0.444695,-0.34951,-0.290349,-0.359459
441.0766,-0.47227,-0.434884,-0.375683,-0.299475,-0.366603
441.7766,-0.46541,-0.439281,-0.371754,-0.266517,-0.364226
442.4566,-0.45179,-0.448456,-0.368489,-0.268287,-0.347487
442.9866,-0.49529,-0.442848,-0.365313,-0.280738,-0.360517
443.5066,-0.49212,-0.450173,-0.379747,-0.275121,-0.360578
444.1866,-0.46721,-0.464401,-0.384536,-0.284471,-0.361569
444.8566,-0.47871,-0.45585,-0.384395,-0.285379,-0.369886
445.5566,-0.48294,-0.458892,-0.40192,-0.296153,-0.373419
446.2366,-0.48473,-0.470277,-0.390952,-0.294379,-0.367251
446.9366,-0.48378,-0.466387,-0.396149,-0.293134,-0.381337
447.6166,-0.49476,-0.478059,-0.39316,-0.270189,-0.356673
448.3166,-0.47016,-0.467096,-0.39416,-0.297405,-0.365614
448.9866,-0.48431,-0.469663,-0.386212,-0.306677,-0.361836
449.5166,-0.48009,-0.469521,-0.393166,-0.28717,-0.367446
450.0166,-0.48758,-0.466906,-0.386562,-0.29933,-0.371918
450.7166,-0.47101,-0.478182,-0.398371,-0.297047,-0.374823
451.3866,-0.49233,-0.48082,-0.397912,-0.290951,-0.375798
452.0866,-0.48473,-0.47312,-0.404135,-0.30683,-0.369251
452.7666,-0.49138,-0.493241,-0.39983,-0.30684,-0.37176
453.4666,-0.47322,-0.475256,-0.39413,-0.287464,-0.366355
454.1366,-0.48917,-0.479568,-0.396765,-0.29132,-0.360247
454.8166,-0.50173,-0.482794,-0.390463,-0.294218,-0.369786
455.5166,-0.48832,-0.478157,-0.382308,-0.281549,-0.357087
455.8366,-0.49761,-0.470036,-0.39991,-0.295214,-0.36911
456.5366,-0.47238,-0.472063,-0.383217,-0.300475,-0.363506
457.2166,-0.49318,-0.471389,-0.393168,-0.295145,-0.363922
457.9166,-0.48832,-0.469042,-0.401019,-0.300373,-0.35837
458.5866,-0.49255,-0.483839,-0.409958,-0.301453,-0.353163
459.2866,-0.50247,-0.497297,-0.40754,-0.292992,-0.367485
459.9666,-0.50321,-0.49528,-0.428976,-0.296371,-0.360979
460.6366,-0.51778,-0.501265,-0.419592,-0.299578,-0.368975
461.3366,-0.48368,-0.495455,-0.410864,-0.29272,-0.363923
461.8366,-0.50532,-0.502141,-0.423558,-0.3181,-0.359459
462.3566,-0.51862,-0.496854,-0.420887,-0.305074,-0.367394
463.0366,-0.52739,-0.499034,-0.417513,-0.293466,-0.352053
463.7366,-0.51282,-0.50112,-0.426744,-0.291385,-0.348544
464.4066,-0.50416,-0.504919,-0.423687,-0.287601,-0.359878
465.1066,-0.50405,-0.49685,-0.4169,-0.302972,-0.356442
465.7766,-0.503,-0.492767,-0.416828,-0.314189,-0.358403
466.4766,-0.50564,-0.503795,-0.409219,-0.300599,-0.354481
467.1566,-0.52021,-0.514063,-0.400861,-0.304512,-0.369107
467.8266,-0.51989,-0.506028,-0.406098,-0.30475,-0.355772
468.1766,-0.51989,-0.507336,-0.415719,-0.289449,-0.357938